TrialIndex,Jitter,ScannerRun,StimType,Order,Delay,CurrentImage,CurrentX,CurrentY,TripletMemberA,TripletMemberB,TripletMemberC,Xcoordinate,Ycoordinate,Xcoordinate_lure1,Ycoordinate_lure1,Xcoordinate_lure2,Ycoordinate_lure2,Xcoordinate_foil,Ycoordinate_foil,enc_practice_trials.thisRepN,enc_practice_trials.thisTrialN,enc_practice_trials.thisN,enc_practice_trials.thisIndex,enc_runs.thisRepN,enc_runs.thisTrialN,enc_runs.thisN,enc_runs.thisIndex,enc_trials.thisRepN,enc_trials.thisTrialN,enc_trials.thisN,enc_trials.thisIndex,trigger_time,start_encoding_text.started,start_encoding_text.stopped,enc_instructions_1_text.started,enc_instructions_1_text.stopped,enc_instructions_1_image.started,enc_instructions_1_image.stopped,enc_instructions_1_key.keys,enc_instructions_1_key.rt,enc_instructions_1_key.started,enc_instructions_1_key.stopped,instructions_1_continue.started,instructions_1_continue.stopped,enc_instructions_2_text.started,enc_instructions_2_text.stopped,enc_instructions_2_image.started,enc_instructions_2_image.stopped,enc_instructions_2_key.keys,enc_instructions_2_key.rt,enc_instructions_2_key.started,enc_instructions_2_key.stopped,instructions_2_continue.started,instructions_2_continue.stopped,enc_instructions_3_text.started,enc_instructions_3_text.stopped,enc_instructions_3_key.keys,enc_instructions_3_key.rt,enc_instructions_3_key.started,enc_instructions_3_key.stopped,enc_instructions_3_continue.started,enc_instructions_3_continue.stopped,start_practice_text.started,start_practice_text.stopped,end_practice_text.started,end_practice_text.stopped,end_practice_key.keys,end_practice_key.rt,end_practice_key.started,end_practice_key.stopped,end_practice_continue.started,end_practice_continue.stopped,triggers,start_MR_text.started,start_MR_text.stopped,start_MR_trigger.keys,start_MR_trigger.rt,start_MR_trigger.started,start_MR_trigger.stopped,start_enc_run_text.started,start_enc_run_text.stopped,loop_start_time,fx_start_time,enc_fx_interior.started,enc_fx_interior.stopped,enc_fx_cross.started,enc_fx_cross.stopped,enc_fx_key.keys,enc_fx_key.started,enc_fx_key.stopped,trial_start_time,stimulus_start_time,enc_trial_interior.started,enc_trial_interior.stopped,enc_trial_main_image.started,enc_trial_main_image.stopped,enc_trial_key.keys,enc_trial_key.started,enc_trial_key.stopped,enc_trial_key.rt,end_enc_run_text.started,end_enc_run_text.stopped,enc_run_end_key.keys,enc_run_end_key.rt,enc_run_end_key.started,enc_run_end_key.stopped,enc_run_end_continue.started,enc_run_end_continue.stopped,ID,practice,date,expName,psychopyVersion,frameRate,
,,,,,,,,,,,,,,,,,,,,,,,,,,,,,,,,0,14.320070100000521,None,15.744909900000494,None,15.744909900000494,None,d,0.7832754999999452,20.711488400000235,None,,,,,,,,,,,,,,,,,,,,,,,,,,,,,,,,,,,,,,,,,,,,,,,,,,,,,,,,,,,,,,,,,,,000000,0,2020_Sep_01_1538,TerKepEsz-Encoding_MR,2020.1.3,59.990449520171325,
,,,,,,,,,,,,,,,,,,,,,,,,,,,,,,,,,,,,,,,,,,,20.711488400000235,None,21.511438499999713,None,21.511438499999713,None,d,0.4724179999993794,26.494691100000637,None,,,,,,,,,,,,,,,,,,,,,,,,,,,,,,,,,,,,,,,,,,,,,,,,,,,,,,,,,000000,0,2020_Sep_01_1538,TerKepEsz-Encoding_MR,2020.1.3,59.990449520171325,
,,,,,,,,,,,,,,,,,,,,,,,,,,,,,,,,,,,,,,,,,,,,,,,,,,,,,26.494691100000637,None,26.994700699999157,None,d,1.2128124999999272,31.97788059999948,None,,,,,,,,,,,,,,,,,,,,,,,,,,,,,,,,,,,,,,,,,,,,,,,,,000000,0,2020_Sep_01_1538,TerKepEsz-Encoding_MR,2020.1.3,59.990449520171325,
,,,,,,,,,,,,,,,,,,,,,,,,,,,,,,,,,,,,,,,,,,,,,,,,,,,,,,,,,,,,,31.97788059999948,None,33.21123280000029,None,34.228652100000545,None,d,1.4589861999993445,35.21197749999919,None,,,,,,,,,,,,,,,,,,,,,,,,,,,,,,,,,,,,,,,000000,0,2020_Sep_01_1538,TerKepEsz-Encoding_MR,2020.1.3,59.990449520171325,
,,,,,,,,,,,,,,,,,,,,,,,,0,0,0,0,,,,,,,,,,,,,,,,,,,,,,,,,,,,,,,,,,,,,,,,,,,,35.21197749999919,None,24.369245599998976,,,,,,,,,,,,,,,,,,,,,,,,,,,,,,,,,,,,000000,0,2020_Sep_01_1538,TerKepEsz-Encoding_MR,2020.1.3,59.990449520171325,
,,,,,,,,,,,,,,,,,,,,,,,,0,0,0,0,,,,,,,,,,,,,,,,,,,,,,,,,,,,,,,,,,,,,,,,,,,,,,0.8646859000000404,36.69526330000008,None,['s'],[1.8876851000004535],36.69526330000008,None,,,,,,,,,,,,,,,,,,,,,,,,,,,,,,000000,0,2020_Sep_01_1538,TerKepEsz-Encoding_MR,2020.1.3,59.990449520171325,
,,,,,,,,,,,,,,,,,,,,,,,,0,0,0,0,,,,,,,,,,,,,,,,,,,,,,,,,,,,,,,,,,,,,,,,,,,,,,1.1978946999988693,,,,,,,,,,,,,,,,,,,,,,,,,,,,,,,,,,,,000000,0,2020_Sep_01_1538,TerKepEsz-Encoding_MR,2020.1.3,59.990449520171325,
,,,,,,,,,,,,,,,,,,,,,,,,0,0,0,0,,,,,,,,,,,,,,,,,,,,,,,,,,,,,,,,,,,,,,,,,,,,,,1.497655199998917,,,,,,,,,,,,,,,,,,,,,,,,,,,,,,,,,,,,000000,0,2020_Sep_01_1538,TerKepEsz-Encoding_MR,2020.1.3,59.990449520171325,
,,,,,,,,,,,,,,,,,,,,,,,,0,0,0,0,,,,,,,,,,,,,,,,,,,,,,,,,,,,,,,,,,,,,,,,,,,,,,1.8325830999983737,,,,,,,,,,,,,,,,,,,,,,,,,,,,,,,,,,,,000000,0,2020_Sep_01_1538,TerKepEsz-Encoding_MR,2020.1.3,59.990449520171325,
,,,,,,,,,,,,,,,,,,,,,,,,0,0,0,0,,,,,,,,,,,,,,,,,,,,,,,,,,,,,,,,,,,,,,,,,,,,,,2.6146904999986873,,,,,,,,,,,,,,,,,,,,,,,,,,,,,,,,,,,,000000,0,2020_Sep_01_1538,TerKepEsz-Encoding_MR,2020.1.3,59.990449520171325,
,,,,,,,,,,,,,,,,,,,,,,,,0,0,0,0,,,,,,,,,,,,,,,,,,,,,,,,,,,,,,,,,,,,,,,,,,,,,,2.91468309999982,,,,,,,,,,,,,,,,,,,,,,,,,,,,,,,,,,,,000000,0,2020_Sep_01_1538,TerKepEsz-Encoding_MR,2020.1.3,59.990449520171325,
1.0,2000.0,1.0,OLP,1.0,3.0,stimuli/fractals/131c.jpg,-0.234375,0.1388888888888889,stimuli/fractals/131c.jpg,stimuli/fractals/131b.jpg,stimuli/fractals/131a.jpg,-0.234375,0.1388888888888889,-0.234375,-0.1388888888888889,-0.078125,0.1388888888888889,0.234375,-0.4166666666666667,,,,,0,0,0,0,0,0,0,0,,,,,,,,,,,,,,,,,,,,,,,,,,,,,,,,,,,,,,,,,,3.16622389999975,,,,,,,38.61185189999924,None,3.0264546999987942,3.0497500999990734,,,,,,,,,,,,,,,,,,,,,,,,,,000000,0,2020_Sep_01_1538,TerKepEsz-Encoding_MR,2020.1.3,59.990449520171325,
1.0,2000.0,1.0,OLP,1.0,3.0,stimuli/fractals/131c.jpg,-0.234375,0.1388888888888889,stimuli/fractals/131c.jpg,stimuli/fractals/131b.jpg,stimuli/fractals/131a.jpg,-0.234375,0.1388888888888889,-0.234375,-0.1388888888888889,-0.078125,0.1388888888888889,0.234375,-0.4166666666666667,,,,,0,0,0,0,0,0,0,0,,,,,,,,,,,,,,,,,,,,,,,,,,,,,,,,,,,,,,,,,,3.5011513999997987,,,,,,,,,,,,,,,,,,,,,,,,,,,,,,,,,,,,000000,0,2020_Sep_01_1538,TerKepEsz-Encoding_MR,2020.1.3,59.990449520171325,
1.0,2000.0,1.0,OLP,1.0,3.0,stimuli/fractals/131c.jpg,-0.234375,0.1388888888888889,stimuli/fractals/131c.jpg,stimuli/fractals/131b.jpg,stimuli/fractals/131a.jpg,-0.234375,0.1388888888888889,-0.234375,-0.1388888888888889,-0.078125,0.1388888888888889,0.234375,-0.4166666666666667,,,,,0,0,0,0,0,0,0,0,,,,,,,,,,,,,,,,,,,,,,,,,,,,,,,,,,,,,,,,,,3.767127999999502,,,,,,,,,,,,,,,,,,,,,,,,,,,,,,,,,,,,000000,0,2020_Sep_01_1538,TerKepEsz-Encoding_MR,2020.1.3,59.990449520171325,
1.0,2000.0,1.0,OLP,1.0,3.0,stimuli/fractals/131c.jpg,-0.234375,0.1388888888888889,stimuli/fractals/131c.jpg,stimuli/fractals/131b.jpg,stimuli/fractals/131a.jpg,-0.234375,0.1388888888888889,-0.234375,-0.1388888888888889,-0.078125,0.1388888888888889,0.234375,-0.4166666666666667,,,,,0,0,0,0,0,0,0,0,,,,,,,,,,,,,,,,,,,,,,,,,,,,,,,,,,,,,,,,,,4.049248699999225,,,,,,,,,,,,,,,,,,,,,,,,,,,,,,,,,,,,000000,0,2020_Sep_01_1538,TerKepEsz-Encoding_MR,2020.1.3,59.990449520171325,
1.0,2000.0,1.0,OLP,1.0,3.0,stimuli/fractals/131c.jpg,-0.234375,0.1388888888888889,stimuli/fractals/131c.jpg,stimuli/fractals/131b.jpg,stimuli/fractals/131a.jpg,-0.234375,0.1388888888888889,-0.234375,-0.1388888888888889,-0.078125,0.1388888888888889,0.234375,-0.4166666666666667,,,,,0,0,0,0,0,0,0,0,,,,,,,,,,,,,,,,,,,,,,,,,,,,,,,,,,,,,,,,,,4.415273299999171,,,,,,,,,,,,,,,,,,,,,,,,,,,,,,,,,,,,000000,0,2020_Sep_01_1538,TerKepEsz-Encoding_MR,2020.1.3,59.990449520171325,
1.0,2000.0,1.0,OLP,1.0,3.0,stimuli/fractals/131c.jpg,-0.234375,0.1388888888888889,stimuli/fractals/131c.jpg,stimuli/fractals/131b.jpg,stimuli/fractals/131a.jpg,-0.234375,0.1388888888888889,-0.234375,-0.1388888888888889,-0.078125,0.1388888888888889,0.234375,-0.4166666666666667,,,,,0,0,0,0,0,0,0,0,,,,,,,,,,,,,,,,,,,,,,,,,,,,,,,,,,,,,,,,,,4.632274799998413,,,,,,,,,,,,,,,,,,,,,,,,,,,,,,,,,,,,000000,0,2020_Sep_01_1538,TerKepEsz-Encoding_MR,2020.1.3,59.990449520171325,
1.0,2000.0,1.0,OLP,1.0,3.0,stimuli/fractals/131c.jpg,-0.234375,0.1388888888888889,stimuli/fractals/131c.jpg,stimuli/fractals/131b.jpg,stimuli/fractals/131a.jpg,-0.234375,0.1388888888888889,-0.234375,-0.1388888888888889,-0.078125,0.1388888888888889,0.234375,-0.4166666666666667,,,,,0,0,0,0,0,0,0,0,,,,,,,,,,,,,,,,,,,,,,,,,,,,,,,,,,,,,,,,,,4.86620369999946,,,,,,,,,,,,,,,,,,,,,,,,,,,,,,,,,,,,000000,0,2020_Sep_01_1538,TerKepEsz-Encoding_MR,2020.1.3,59.990449520171325,
1.0,2000.0,1.0,OLP,1.0,3.0,stimuli/fractals/131c.jpg,-0.234375,0.1388888888888889,stimuli/fractals/131c.jpg,stimuli/fractals/131b.jpg,stimuli/fractals/131a.jpg,-0.234375,0.1388888888888889,-0.234375,-0.1388888888888889,-0.078125,0.1388888888888889,0.234375,-0.4166666666666667,,,,,0,0,0,0,0,0,0,0,,,,,,,,,,,,,,,,,,,,,,,,,,,,,,,,,,,,,,,,,,5.215112799998678,,,,,,,,,,,41.64509989999897,None,41.64509989999897,None,None,41.64509989999897,None,5.058852099999058,5.08182879999913,,,,,,,,,,,,,,,,,000000,0,2020_Sep_01_1538,TerKepEsz-Encoding_MR,2020.1.3,59.990449520171325,
1.0,2000.0,1.0,OLP,1.0,3.0,stimuli/fractals/131c.jpg,-0.234375,0.1388888888888889,stimuli/fractals/131c.jpg,stimuli/fractals/131b.jpg,stimuli/fractals/131a.jpg,-0.234375,0.1388888888888889,-0.234375,-0.1388888888888889,-0.078125,0.1388888888888889,0.234375,-0.4166666666666667,,,,,0,0,0,0,0,0,0,0,,,,,,,,,,,,,,,,,,,,,,,,,,,,,,,,,,,,,,,,,,5.432350599998244,,,,,,,,,,,,,,,,,,,,,,,,,,,,,,,,,,,,000000,0,2020_Sep_01_1538,TerKepEsz-Encoding_MR,2020.1.3,59.990449520171325,
1.0,2000.0,1.0,OLP,1.0,3.0,stimuli/fractals/131c.jpg,-0.234375,0.1388888888888889,stimuli/fractals/131c.jpg,stimuli/fractals/131b.jpg,stimuli/fractals/131a.jpg,-0.234375,0.1388888888888889,-0.234375,-0.1388888888888889,-0.078125,0.1388888888888889,0.234375,-0.4166666666666667,,,,,0,0,0,0,0,0,0,0,,,,,,,,,,,,,,,,,,,,,,,,,,,,,,,,,,,,,,,,,,5.682870899998306,,,,,,,,,,,,,,,,,,,,,,,,,,,,,,,,,,,,000000,0,2020_Sep_01_1538,TerKepEsz-Encoding_MR,2020.1.3,59.990449520171325,
1.0,2000.0,1.0,OLP,1.0,3.0,stimuli/fractals/131c.jpg,-0.234375,0.1388888888888889,stimuli/fractals/131c.jpg,stimuli/fractals/131b.jpg,stimuli/fractals/131a.jpg,-0.234375,0.1388888888888889,-0.234375,-0.1388888888888889,-0.078125,0.1388888888888889,0.234375,-0.4166666666666667,,,,,0,0,0,0,0,0,0,0,,,,,,,,,,,,,,,,,,,,,,,,,,,,,,,,,,,,,,,,,,6.0151761999986775,,,,,,,,,,,,,,,,,,,,,,,,,,,,,,,,,,,,000000,0,2020_Sep_01_1538,TerKepEsz-Encoding_MR,2020.1.3,59.990449520171325,
1.0,2000.0,1.0,OLP,1.0,3.0,stimuli/fractals/131c.jpg,-0.234375,0.1388888888888889,stimuli/fractals/131c.jpg,stimuli/fractals/131b.jpg,stimuli/fractals/131a.jpg,-0.234375,0.1388888888888889,-0.234375,-0.1388888888888889,-0.078125,0.1388888888888889,0.234375,-0.4166666666666667,,,,,0,0,0,0,0,0,0,0,,,,,,,,,,,,,,,,,,,,,,,,,,,,,,,,,,,,,,,,,,6.299170999998751,,,,,,,,,,,,,,,,,,,,,,,,,,,,,,,,,,,,000000,0,2020_Sep_01_1538,TerKepEsz-Encoding_MR,2020.1.3,59.990449520171325,
1.0,2000.0,1.0,OLP,1.0,3.0,stimuli/fractals/131c.jpg,-0.234375,0.1388888888888889,stimuli/fractals/131c.jpg,stimuli/fractals/131b.jpg,stimuli/fractals/131a.jpg,-0.234375,0.1388888888888889,-0.234375,-0.1388888888888889,-0.078125,0.1388888888888889,0.234375,-0.4166666666666667,,,,,0,0,0,0,0,0,0,0,,,,,,,,,,,,,,,,,,,,,,,,,,,,,,,,,,,,,,,,,,6.515146499999901,,,,,,,,,,,,,,,,,,,,,,,,,,,,,,,,,,,,000000,0,2020_Sep_01_1538,TerKepEsz-Encoding_MR,2020.1.3,59.990449520171325,
1.0,2000.0,1.0,OLP,1.0,3.0,stimuli/fractals/131c.jpg,-0.234375,0.1388888888888889,stimuli/fractals/131c.jpg,stimuli/fractals/131b.jpg,stimuli/fractals/131a.jpg,-0.234375,0.1388888888888889,-0.234375,-0.1388888888888889,-0.078125,0.1388888888888889,0.234375,-0.4166666666666667,,,,,0,0,0,0,0,0,0,0,,,,,,,,,,,,,,,,,,,,,,,,,,,,,,,,,,,,,,,,,,6.948655299998791,,,,,,,,,,,,,,,,,,,,,,,,,,,,,,,,,,,,000000,0,2020_Sep_01_1538,TerKepEsz-Encoding_MR,2020.1.3,59.990449520171325,
1.0,2000.0,1.0,OLP,1.0,3.0,stimuli/fractals/131c.jpg,-0.234375,0.1388888888888889,stimuli/fractals/131c.jpg,stimuli/fractals/131b.jpg,stimuli/fractals/131a.jpg,-0.234375,0.1388888888888889,-0.234375,-0.1388888888888889,-0.078125,0.1388888888888889,0.234375,-0.4166666666666667,,,,,0,0,0,0,0,0,0,0,,,,,,,,,,,,,,,,,,,,,,,,,,,,,,,,,,,,,,,,,,7.198593599998276,,,,,,,,,,,,,,,,,,,,,,,,,,,,,,,,,,,,000000,0,2020_Sep_01_1538,TerKepEsz-Encoding_MR,2020.1.3,59.990449520171325,
1.0,2000.0,1.0,OLP,1.0,3.0,stimuli/fractals/131c.jpg,-0.234375,0.1388888888888889,stimuli/fractals/131c.jpg,stimuli/fractals/131b.jpg,stimuli/fractals/131a.jpg,-0.234375,0.1388888888888889,-0.234375,-0.1388888888888889,-0.078125,0.1388888888888889,0.234375,-0.4166666666666667,,,,,0,0,0,0,0,0,0,0,,,,,,,,,,,,,,,,,,,,,,,,,,,,,,,,,,,,,,,,,,7.415694899998925,,,,,,,,,,,,,,,,,,,,,,,,,,,,,,,,,,,,000000,0,2020_Sep_01_1538,TerKepEsz-Encoding_MR,2020.1.3,59.990449520171325,
1.0,2000.0,1.0,OLP,1.0,3.0,stimuli/fractals/131c.jpg,-0.234375,0.1388888888888889,stimuli/fractals/131c.jpg,stimuli/fractals/131b.jpg,stimuli/fractals/131a.jpg,-0.234375,0.1388888888888889,-0.234375,-0.1388888888888889,-0.078125,0.1388888888888889,0.234375,-0.4166666666666667,,,,,0,0,0,0,0,0,0,0,,,,,,,,,,,,,,,,,,,,,,,,,,,,,,,,,,,,,,,,,,7.749155799998334,,,,,,,,,,,,,,,,,,,,,,,,,,,,,,,,,,,,000000,0,2020_Sep_01_1538,TerKepEsz-Encoding_MR,2020.1.3,59.990449520171325,
1.0,2000.0,1.0,OLP,1.0,3.0,stimuli/fractals/131c.jpg,-0.234375,0.1388888888888889,stimuli/fractals/131c.jpg,stimuli/fractals/131b.jpg,stimuli/fractals/131a.jpg,-0.234375,0.1388888888888889,-0.234375,-0.1388888888888889,-0.078125,0.1388888888888889,0.234375,-0.4166666666666667,,,,,0,0,0,0,0,0,0,0,,,,,,,,,,,,,,,,,,,,,,,,,,,,,,,,,,,,,,,,,,7.981887099998858,,,,,,,,,,,,,,,,,,,,,,,,,,,,,,,,,,,,000000,0,2020_Sep_01_1538,TerKepEsz-Encoding_MR,2020.1.3,59.990449520171325,
1.0,2000.0,1.0,OLP,1.0,3.0,stimuli/fractals/131c.jpg,-0.234375,0.1388888888888889,stimuli/fractals/131c.jpg,stimuli/fractals/131b.jpg,stimuli/fractals/131a.jpg,-0.234375,0.1388888888888889,-0.234375,-0.1388888888888889,-0.078125,0.1388888888888889,0.234375,-0.4166666666666667,,,,,0,0,0,0,0,0,0,0,,,,,,,,,,,,,,,,,,,,,,,,,,,,,,,,,,,,,,,,,,,,,,,,,,,,,,,,,,,,,,43.67766699999993,None,43.67766699999993,None,None,43.67766699999993,None,,,,,,,,,,000000,0,2020_Sep_01_1538,TerKepEsz-Encoding_MR,2020.1.3,59.990449520171325,
2.0,6000.0,1.0,OLP,1.0,3.0,stimuli/fractals/72b.jpg,-0.078125,0.4166666666666667,stimuli/fractals/72b.jpg,stimuli/fractals/72a.jpg,stimuli/fractals/72c.jpg,-0.078125,0.4166666666666667,-0.234375,0.4166666666666667,-0.078125,0.1388888888888889,-0.390625,-0.4166666666666667,,,,,0,0,0,0,0,1,1,1,,,,,,,,,,,,,,,,,,,,,,,,,,,,,,,,,,,,,,,,,,8.19878239999889,,,,,,,,,,8.06538619999992,,,,,,,,,,,,,,,,,,,,,,,,,,000000,0,2020_Sep_01_1538,TerKepEsz-Encoding_MR,2020.1.3,59.990449520171325,
2.0,6000.0,1.0,OLP,1.0,3.0,stimuli/fractals/72b.jpg,-0.078125,0.4166666666666667,stimuli/fractals/72b.jpg,stimuli/fractals/72a.jpg,stimuli/fractals/72c.jpg,-0.078125,0.4166666666666667,-0.234375,0.4166666666666667,-0.078125,0.1388888888888889,-0.390625,-0.4166666666666667,,,,,0,0,0,0,0,1,1,1,,,,,,,,,,,,,,,,,,,,,,,,,,,,,,,,,,,,,,,,,,8.5658859999985,,,,,,,,,,,,,,,,,,,,,,,,,,,,,,,,,,,,000000,0,2020_Sep_01_1538,TerKepEsz-Encoding_MR,2020.1.3,59.990449520171325,
2.0,6000.0,1.0,OLP,1.0,3.0,stimuli/fractals/72b.jpg,-0.078125,0.4166666666666667,stimuli/fractals/72b.jpg,stimuli/fractals/72a.jpg,stimuli/fractals/72c.jpg,-0.078125,0.4166666666666667,-0.234375,0.4166666666666667,-0.078125,0.1388888888888889,-0.390625,-0.4166666666666667,,,,,0,0,0,0,0,1,1,1,,,,,,,,,,,,,,,,,,,,,,,,,,,,,,,,,,,,,,,,,,8.798786800000016,,,,,,,,,,,,,,,,,,,,,,,,,,,,,,,,,,,,000000,0,2020_Sep_01_1538,TerKepEsz-Encoding_MR,2020.1.3,59.990449520171325,
2.0,6000.0,1.0,OLP,1.0,3.0,stimuli/fractals/72b.jpg,-0.078125,0.4166666666666667,stimuli/fractals/72b.jpg,stimuli/fractals/72a.jpg,stimuli/fractals/72c.jpg,-0.078125,0.4166666666666667,-0.234375,0.4166666666666667,-0.078125,0.1388888888888889,-0.390625,-0.4166666666666667,,,,,0,0,0,0,0,1,1,1,,,,,,,,,,,,,,,,,,,,,,,,,,,,,,,,,,,,,,,,,,9.032892499999434,,,,,,,,,,,,,,,,,,,,,,,,,,,,,,,,,,,,000000,0,2020_Sep_01_1538,TerKepEsz-Encoding_MR,2020.1.3,59.990449520171325,
2.0,6000.0,1.0,OLP,1.0,3.0,stimuli/fractals/72b.jpg,-0.078125,0.4166666666666667,stimuli/fractals/72b.jpg,stimuli/fractals/72a.jpg,stimuli/fractals/72c.jpg,-0.078125,0.4166666666666667,-0.234375,0.4166666666666667,-0.078125,0.1388888888888889,-0.390625,-0.4166666666666667,,,,,0,0,0,0,0,1,1,1,,,,,,,,,,,,,,,,,,,,,,,,,,,,,,,,,,,,,,,,,,9.415793599999233,,,,,,,,,,,,,,,,,,,,,,,,,,,,,,,,,,,,000000,0,2020_Sep_01_1538,TerKepEsz-Encoding_MR,2020.1.3,59.990449520171325,
2.0,6000.0,1.0,OLP,1.0,3.0,stimuli/fractals/72b.jpg,-0.078125,0.4166666666666667,stimuli/fractals/72b.jpg,stimuli/fractals/72a.jpg,stimuli/fractals/72c.jpg,-0.078125,0.4166666666666667,-0.234375,0.4166666666666667,-0.078125,0.1388888888888889,-0.390625,-0.4166666666666667,,,,,0,0,0,0,0,1,1,1,,,,,,,,,,,,,,,,,,,,,,,,,,,,,,,,,,,,,,,,,,9.665915299998233,,,,,,,,,,,,,,,,,,,,,,,,,,,,,,,,,,,,000000,0,2020_Sep_01_1538,TerKepEsz-Encoding_MR,2020.1.3,59.990449520171325,
2.0,6000.0,1.0,OLP,1.0,3.0,stimuli/fractals/72b.jpg,-0.078125,0.4166666666666667,stimuli/fractals/72b.jpg,stimuli/fractals/72a.jpg,stimuli/fractals/72c.jpg,-0.078125,0.4166666666666667,-0.234375,0.4166666666666667,-0.078125,0.1388888888888889,-0.390625,-0.4166666666666667,,,,,0,0,0,0,0,1,1,1,,,,,,,,,,,,,,,,,,,,,,,,,,,,,,,,,,,,,,,,,,9.88212239999848,,,,,,,,,,,,,,,,,,,,,,,,,,,,,,,,,,,,000000,0,2020_Sep_01_1538,TerKepEsz-Encoding_MR,2020.1.3,59.990449520171325,
2.0,6000.0,1.0,OLP,1.0,3.0,stimuli/fractals/72b.jpg,-0.078125,0.4166666666666667,stimuli/fractals/72b.jpg,stimuli/fractals/72a.jpg,stimuli/fractals/72c.jpg,-0.078125,0.4166666666666667,-0.234375,0.4166666666666667,-0.078125,0.1388888888888889,-0.390625,-0.4166666666666667,,,,,0,0,0,0,0,1,1,1,,,,,,,,,,,,,,,,,,,,,,,,,,,,,,,,,,,,,,,,,,10.299217699999645,,,,,,,,,,,,,,,,,,,,,,,,,,,,,,,,,,,,000000,0,2020_Sep_01_1538,TerKepEsz-Encoding_MR,2020.1.3,59.990449520171325,
2.0,6000.0,1.0,OLP,1.0,3.0,stimuli/fractals/72b.jpg,-0.078125,0.4166666666666667,stimuli/fractals/72b.jpg,stimuli/fractals/72a.jpg,stimuli/fractals/72c.jpg,-0.078125,0.4166666666666667,-0.234375,0.4166666666666667,-0.078125,0.1388888888888889,-0.390625,-0.4166666666666667,,,,,0,0,0,0,0,1,1,1,,,,,,,,,,,,,,,,,,,,,,,,,,,,,,,,,,,,,,,,,,10.499090799999976,,,,,,,,,,,,,,,,,,,,,,,,,,,,,,,,,,,,000000,0,2020_Sep_01_1538,TerKepEsz-Encoding_MR,2020.1.3,59.990449520171325,
2.0,6000.0,1.0,OLP,1.0,3.0,stimuli/fractals/72b.jpg,-0.078125,0.4166666666666667,stimuli/fractals/72b.jpg,stimuli/fractals/72a.jpg,stimuli/fractals/72c.jpg,-0.078125,0.4166666666666667,-0.234375,0.4166666666666667,-0.078125,0.1388888888888889,-0.390625,-0.4166666666666667,,,,,0,0,0,0,0,1,1,1,,,,,,,,,,,,,,,,,,,,,,,,,,,,,,,,,,,,,,,,,,10.749005699999543,,,,,,,,,,,,,,,,,,,,,,,,,,,,,,,,,,,,000000,0,2020_Sep_01_1538,TerKepEsz-Encoding_MR,2020.1.3,59.990449520171325,
2.0,6000.0,1.0,OLP,1.0,3.0,stimuli/fractals/72b.jpg,-0.078125,0.4166666666666667,stimuli/fractals/72b.jpg,stimuli/fractals/72a.jpg,stimuli/fractals/72c.jpg,-0.078125,0.4166666666666667,-0.234375,0.4166666666666667,-0.078125,0.1388888888888889,-0.390625,-0.4166666666666667,,,,,0,0,0,0,0,1,1,1,,,,,,,,,,,,,,,,,,,,,,,,,,,,,,,,,,,,,,,,,,11.132969299998877,,,,,,,,,,,,,,,,,,,,,,,,,,,,,,,,,,,,000000,0,2020_Sep_01_1538,TerKepEsz-Encoding_MR,2020.1.3,59.990449520171325,
2.0,6000.0,1.0,OLP,1.0,3.0,stimuli/fractals/72b.jpg,-0.078125,0.4166666666666667,stimuli/fractals/72b.jpg,stimuli/fractals/72a.jpg,stimuli/fractals/72c.jpg,-0.078125,0.4166666666666667,-0.234375,0.4166666666666667,-0.078125,0.1388888888888889,-0.390625,-0.4166666666666667,,,,,0,0,0,0,0,1,1,1,,,,,,,,,,,,,,,,,,,,,,,,,,,,,,,,,,,,,,,,,,11.399080999999569,,,,,,,,,,,,,,,,,,,,,,,,,,,,,,,,,,,,000000,0,2020_Sep_01_1538,TerKepEsz-Encoding_MR,2020.1.3,59.990449520171325,
2.0,6000.0,1.0,OLP,1.0,3.0,stimuli/fractals/72b.jpg,-0.078125,0.4166666666666667,stimuli/fractals/72b.jpg,stimuli/fractals/72a.jpg,stimuli/fractals/72c.jpg,-0.078125,0.4166666666666667,-0.234375,0.4166666666666667,-0.078125,0.1388888888888889,-0.390625,-0.4166666666666667,,,,,0,0,0,0,0,1,1,1,,,,,,,,,,,,,,,,,,,,,,,,,,,,,,,,,,,,,,,,,,11.599032199999783,,,,,,,,,,,,,,,,,,,,,,,,,,,,,,,,,,,,000000,0,2020_Sep_01_1538,TerKepEsz-Encoding_MR,2020.1.3,59.990449520171325,
2.0,6000.0,1.0,OLP,1.0,3.0,stimuli/fractals/72b.jpg,-0.078125,0.4166666666666667,stimuli/fractals/72b.jpg,stimuli/fractals/72a.jpg,stimuli/fractals/72c.jpg,-0.078125,0.4166666666666667,-0.234375,0.4166666666666667,-0.078125,0.1388888888888889,-0.390625,-0.4166666666666667,,,,,0,0,0,0,0,1,1,1,,,,,,,,,,,,,,,,,,,,,,,,,,,,,,,,,,,,,,,,,,12.032294499998898,,,,,,,,,,,,,,,,,,,,,,,,,,,,,,,,,,,,000000,0,2020_Sep_01_1538,TerKepEsz-Encoding_MR,2020.1.3,59.990449520171325,
2.0,6000.0,1.0,OLP,1.0,3.0,stimuli/fractals/72b.jpg,-0.078125,0.4166666666666667,stimuli/fractals/72b.jpg,stimuli/fractals/72a.jpg,stimuli/fractals/72c.jpg,-0.078125,0.4166666666666667,-0.234375,0.4166666666666667,-0.078125,0.1388888888888889,-0.390625,-0.4166666666666667,,,,,0,0,0,0,0,1,1,1,,,,,,,,,,,,,,,,,,,,,,,,,,,,,,,,,,,,,,,,,,12.282077999998364,,,,,,,,,,,,,,,,,,,,,,,,,,,,,,,,,,,,000000,0,2020_Sep_01_1538,TerKepEsz-Encoding_MR,2020.1.3,59.990449520171325,
2.0,6000.0,1.0,OLP,1.0,3.0,stimuli/fractals/72b.jpg,-0.078125,0.4166666666666667,stimuli/fractals/72b.jpg,stimuli/fractals/72a.jpg,stimuli/fractals/72c.jpg,-0.078125,0.4166666666666667,-0.234375,0.4166666666666667,-0.078125,0.1388888888888889,-0.390625,-0.4166666666666667,,,,,0,0,0,0,0,1,1,1,,,,,,,,,,,,,,,,,,,,,,,,,,,,,,,,,,,,,,,,,,12.482101099998545,,,,,,,,,,,,,,,,,,,,,,,,,,,,,,,,,,,,000000,0,2020_Sep_01_1538,TerKepEsz-Encoding_MR,2020.1.3,59.990449520171325,
2.0,6000.0,1.0,OLP,1.0,3.0,stimuli/fractals/72b.jpg,-0.078125,0.4166666666666667,stimuli/fractals/72b.jpg,stimuli/fractals/72a.jpg,stimuli/fractals/72c.jpg,-0.078125,0.4166666666666667,-0.234375,0.4166666666666667,-0.078125,0.1388888888888889,-0.390625,-0.4166666666666667,,,,,0,0,0,0,0,1,1,1,,,,,,,,,,,,,,,,,,,,,,,,,,,,,,,,,,,,,,,,,,12.916110799998933,,,,,,,,,,,,,,,,,,,,,,,,,,,,,,,,,,,,000000,0,2020_Sep_01_1538,TerKepEsz-Encoding_MR,2020.1.3,59.990449520171325,
2.0,6000.0,1.0,OLP,1.0,3.0,stimuli/fractals/72b.jpg,-0.078125,0.4166666666666667,stimuli/fractals/72b.jpg,stimuli/fractals/72a.jpg,stimuli/fractals/72c.jpg,-0.078125,0.4166666666666667,-0.234375,0.4166666666666667,-0.078125,0.1388888888888889,-0.390625,-0.4166666666666667,,,,,0,0,0,0,0,1,1,1,,,,,,,,,,,,,,,,,,,,,,,,,,,,,,,,,,,,,,,,,,13.148977499999091,,,,,,,,,,,,,,,,,,,,,,,,,,,,,,,,,,,,000000,0,2020_Sep_01_1538,TerKepEsz-Encoding_MR,2020.1.3,59.990449520171325,
2.0,6000.0,1.0,OLP,1.0,3.0,stimuli/fractals/72b.jpg,-0.078125,0.4166666666666667,stimuli/fractals/72b.jpg,stimuli/fractals/72a.jpg,stimuli/fractals/72c.jpg,-0.078125,0.4166666666666667,-0.234375,0.4166666666666667,-0.078125,0.1388888888888889,-0.390625,-0.4166666666666667,,,,,0,0,0,0,0,1,1,1,,,,,,,,,,,,,,,,,,,,,,,,,,,,,,,,,,,,,,,,,,13.3649934999994,,,,,,,,,,,,,,,,,,,,,,,,,,,,,,,,,,,,000000,0,2020_Sep_01_1538,TerKepEsz-Encoding_MR,2020.1.3,59.990449520171325,
2.0,6000.0,1.0,OLP,1.0,3.0,stimuli/fractals/72b.jpg,-0.078125,0.4166666666666667,stimuli/fractals/72b.jpg,stimuli/fractals/72a.jpg,stimuli/fractals/72c.jpg,-0.078125,0.4166666666666667,-0.234375,0.4166666666666667,-0.078125,0.1388888888888889,-0.390625,-0.4166666666666667,,,,,0,0,0,0,0,1,1,1,,,,,,,,,,,,,,,,,,,,,,,,,,,,,,,,,,,,,,,,,,13.764986399999543,,,,,,,,,,,,,,,,,,,,,,,,,,,,,,,,,,,,000000,0,2020_Sep_01_1538,TerKepEsz-Encoding_MR,2020.1.3,59.990449520171325,
2.0,6000.0,1.0,OLP,1.0,3.0,stimuli/fractals/72b.jpg,-0.078125,0.4166666666666667,stimuli/fractals/72b.jpg,stimuli/fractals/72a.jpg,stimuli/fractals/72c.jpg,-0.078125,0.4166666666666667,-0.234375,0.4166666666666667,-0.078125,0.1388888888888889,-0.390625,-0.4166666666666667,,,,,0,0,0,0,0,1,1,1,,,,,,,,,,,,,,,,,,,,,,,,,,,,,,,,,,,,,,,,,,13.998954499998945,,,,,,,,,,,,,,,,,,,,,,,,,,,,,,,,,,,,000000,0,2020_Sep_01_1538,TerKepEsz-Encoding_MR,2020.1.3,59.990449520171325,
2.0,6000.0,1.0,OLP,1.0,3.0,stimuli/fractals/72b.jpg,-0.078125,0.4166666666666667,stimuli/fractals/72b.jpg,stimuli/fractals/72a.jpg,stimuli/fractals/72c.jpg,-0.078125,0.4166666666666667,-0.234375,0.4166666666666667,-0.078125,0.1388888888888889,-0.390625,-0.4166666666666667,,,,,0,0,0,0,0,1,1,1,,,,,,,,,,,,,,,,,,,,,,,,,,,,,,,,,,,,,,,,,,14.165199599998232,,,,,,,,,,,46.66088750000017,None,46.66088750000017,None,None,46.66088750000017,None,14.061422299999322,14.081597399999737,,,,,,,,,,,,,,,,,000000,0,2020_Sep_01_1538,TerKepEsz-Encoding_MR,2020.1.3,59.990449520171325,
2.0,6000.0,1.0,OLP,1.0,3.0,stimuli/fractals/72b.jpg,-0.078125,0.4166666666666667,stimuli/fractals/72b.jpg,stimuli/fractals/72a.jpg,stimuli/fractals/72c.jpg,-0.078125,0.4166666666666667,-0.234375,0.4166666666666667,-0.078125,0.1388888888888889,-0.390625,-0.4166666666666667,,,,,0,0,0,0,0,1,1,1,,,,,,,,,,,,,,,,,,,,,,,,,,,,,,,,,,,,,,,,,,14.632185599999502,,,,,,,,,,,,,,,,,,,,,,,,,,,,,,,,,,,,000000,0,2020_Sep_01_1538,TerKepEsz-Encoding_MR,2020.1.3,59.990449520171325,
2.0,6000.0,1.0,OLP,1.0,3.0,stimuli/fractals/72b.jpg,-0.078125,0.4166666666666667,stimuli/fractals/72b.jpg,stimuli/fractals/72a.jpg,stimuli/fractals/72c.jpg,-0.078125,0.4166666666666667,-0.234375,0.4166666666666667,-0.078125,0.1388888888888889,-0.390625,-0.4166666666666667,,,,,0,0,0,0,0,1,1,1,,,,,,,,,,,,,,,,,,,,,,,,,,,,,,,,,,,,,,,,,,14.849003799999991,,,,,,,,,,,,,,,,,,,,,,,,,,,,,,,,,,,,000000,0,2020_Sep_01_1538,TerKepEsz-Encoding_MR,2020.1.3,59.990449520171325,
2.0,6000.0,1.0,OLP,1.0,3.0,stimuli/fractals/72b.jpg,-0.078125,0.4166666666666667,stimuli/fractals/72b.jpg,stimuli/fractals/72a.jpg,stimuli/fractals/72c.jpg,-0.078125,0.4166666666666667,-0.234375,0.4166666666666667,-0.078125,0.1388888888888889,-0.390625,-0.4166666666666667,,,,,0,0,0,0,0,1,1,1,,,,,,,,,,,,,,,,,,,,,,,,,,,,,,,,,,,,,,,,,,15.049060099998314,,,,,,,,,,,,,,,,,,,,,,,,,,,,,,,,,,,,000000,0,2020_Sep_01_1538,TerKepEsz-Encoding_MR,2020.1.3,59.990449520171325,
2.0,6000.0,1.0,OLP,1.0,3.0,stimuli/fractals/72b.jpg,-0.078125,0.4166666666666667,stimuli/fractals/72b.jpg,stimuli/fractals/72a.jpg,stimuli/fractals/72c.jpg,-0.078125,0.4166666666666667,-0.234375,0.4166666666666667,-0.078125,0.1388888888888889,-0.390625,-0.4166666666666667,,,,,0,0,0,0,0,1,1,1,,,,,,,,,,,,,,,,,,,,,,,,,,,,,,,,,,,,,,,,,,15.482322599998952,,,,,,,,,,,,,,,,,,,,,,,,,,,,,,,,,,,,000000,0,2020_Sep_01_1538,TerKepEsz-Encoding_MR,2020.1.3,59.990449520171325,
2.0,6000.0,1.0,OLP,1.0,3.0,stimuli/fractals/72b.jpg,-0.078125,0.4166666666666667,stimuli/fractals/72b.jpg,stimuli/fractals/72a.jpg,stimuli/fractals/72c.jpg,-0.078125,0.4166666666666667,-0.234375,0.4166666666666667,-0.078125,0.1388888888888889,-0.390625,-0.4166666666666667,,,,,0,0,0,0,0,1,1,1,,,,,,,,,,,,,,,,,,,,,,,,,,,,,,,,,,,,,,,,,,15.732043799998792,,,,,,,,,,,,,,,,,,,,,,,,,,,,,,,,,,,,000000,0,2020_Sep_01_1538,TerKepEsz-Encoding_MR,2020.1.3,59.990449520171325,
2.0,6000.0,1.0,OLP,1.0,3.0,stimuli/fractals/72b.jpg,-0.078125,0.4166666666666667,stimuli/fractals/72b.jpg,stimuli/fractals/72a.jpg,stimuli/fractals/72c.jpg,-0.078125,0.4166666666666667,-0.234375,0.4166666666666667,-0.078125,0.1388888888888889,-0.390625,-0.4166666666666667,,,,,0,0,0,0,0,1,1,1,,,,,,,,,,,,,,,,,,,,,,,,,,,,,,,,,,,,,,,,,,15.949013399998876,,,,,,,,,,,,,,,,,,,,,,,,,,,,,,,,,,,,000000,0,2020_Sep_01_1538,TerKepEsz-Encoding_MR,2020.1.3,59.990449520171325,
2.0,6000.0,1.0,OLP,1.0,3.0,stimuli/fractals/72b.jpg,-0.078125,0.4166666666666667,stimuli/fractals/72b.jpg,stimuli/fractals/72a.jpg,stimuli/fractals/72c.jpg,-0.078125,0.4166666666666667,-0.234375,0.4166666666666667,-0.078125,0.1388888888888889,-0.390625,-0.4166666666666667,,,,,0,0,0,0,0,1,1,1,,,,,,,,,,,,,,,,,,,,,,,,,,,,,,,,,,,,,,,,,,16.415761799999018,,,,,,,,,,,,,,,,,,,,,,,,,,,,,,,,,,,,000000,0,2020_Sep_01_1538,TerKepEsz-Encoding_MR,2020.1.3,59.990449520171325,
2.0,6000.0,1.0,OLP,1.0,3.0,stimuli/fractals/72b.jpg,-0.078125,0.4166666666666667,stimuli/fractals/72b.jpg,stimuli/fractals/72a.jpg,stimuli/fractals/72c.jpg,-0.078125,0.4166666666666667,-0.234375,0.4166666666666667,-0.078125,0.1388888888888889,-0.390625,-0.4166666666666667,,,,,0,0,0,0,0,1,1,1,,,,,,,,,,,,,,,,,,,,,,,,,,,,,,,,,,,,,,,,,,16.64902859999893,,,,,,,,,,,,,,,,,,,,,,,,,,,,,,,,,,,,000000,0,2020_Sep_01_1538,TerKepEsz-Encoding_MR,2020.1.3,59.990449520171325,
2.0,6000.0,1.0,OLP,1.0,3.0,stimuli/fractals/72b.jpg,-0.078125,0.4166666666666667,stimuli/fractals/72b.jpg,stimuli/fractals/72a.jpg,stimuli/fractals/72c.jpg,-0.078125,0.4166666666666667,-0.234375,0.4166666666666667,-0.078125,0.1388888888888889,-0.390625,-0.4166666666666667,,,,,0,0,0,0,0,1,1,1,,,,,,,,,,,,,,,,,,,,,,,,,,,,,,,,,,,,,,,,,,16.865889899998365,,,,,,,,,,,,,,,,,,,,,,,,,,,,,,,,,,,,000000,0,2020_Sep_01_1538,TerKepEsz-Encoding_MR,2020.1.3,59.990449520171325,
2.0,6000.0,1.0,OLP,1.0,3.0,stimuli/fractals/72b.jpg,-0.078125,0.4166666666666667,stimuli/fractals/72b.jpg,stimuli/fractals/72a.jpg,stimuli/fractals/72c.jpg,-0.078125,0.4166666666666667,-0.234375,0.4166666666666667,-0.078125,0.1388888888888889,-0.390625,-0.4166666666666667,,,,,0,0,0,0,0,1,1,1,,,,,,,,,,,,,,,,,,,,,,,,,,,,,,,,,,,,,,,,,,,,,,,,,,,,,,,,,,,,,,52.677410000000236,None,52.677410000000236,None,None,52.677410000000236,None,,,,,,,,,,000000,0,2020_Sep_01_1538,TerKepEsz-Encoding_MR,2020.1.3,59.990449520171325,
3.0,2000.0,1.0,LLP,1.0,5.0,stimuli/fractals/41b.jpg,0.390625,0.4166666666666667,stimuli/fractals/41b.jpg,stimuli/fractals/41a.jpg,stimuli/fractals/41c.jpg,0.390625,0.4166666666666667,0.234375,0.4166666666666667,0.390625,0.1388888888888889,-0.078125,-0.4166666666666667,,,,,0,0,0,0,0,2,2,2,,,,,,,,,,,,,,,,,,,,,,,,,,,,,,,,,,,,,,,,,,17.315669399999024,,,,,,,,,,17.08122589999948,,,,,,,,,,,,,,,,,,,,,,,,,,000000,0,2020_Sep_01_1538,TerKepEsz-Encoding_MR,2020.1.3,59.990449520171325,
3.0,2000.0,1.0,LLP,1.0,5.0,stimuli/fractals/41b.jpg,0.390625,0.4166666666666667,stimuli/fractals/41b.jpg,stimuli/fractals/41a.jpg,stimuli/fractals/41c.jpg,0.390625,0.4166666666666667,0.234375,0.4166666666666667,0.390625,0.1388888888888889,-0.078125,-0.4166666666666667,,,,,0,0,0,0,0,2,2,2,,,,,,,,,,,,,,,,,,,,,,,,,,,,,,,,,,,,,,,,,,17.548625399998855,,,,,,,,,,,,,,,,,,,,,,,,,,,,,,,,,,,,000000,0,2020_Sep_01_1538,TerKepEsz-Encoding_MR,2020.1.3,59.990449520171325,
3.0,2000.0,1.0,LLP,1.0,5.0,stimuli/fractals/41b.jpg,0.390625,0.4166666666666667,stimuli/fractals/41b.jpg,stimuli/fractals/41a.jpg,stimuli/fractals/41c.jpg,0.390625,0.4166666666666667,0.234375,0.4166666666666667,0.390625,0.1388888888888889,-0.078125,-0.4166666666666667,,,,,0,0,0,0,0,2,2,2,,,,,,,,,,,,,,,,,,,,,,,,,,,,,,,,,,,,,,,,,,17.781741199998578,,,,,,,,,,,,,,,,,,,,,,,,,,,,,,,,,,,,000000,0,2020_Sep_01_1538,TerKepEsz-Encoding_MR,2020.1.3,59.990449520171325,
3.0,2000.0,1.0,LLP,1.0,5.0,stimuli/fractals/41b.jpg,0.390625,0.4166666666666667,stimuli/fractals/41b.jpg,stimuli/fractals/41a.jpg,stimuli/fractals/41c.jpg,0.390625,0.4166666666666667,0.234375,0.4166666666666667,0.390625,0.1388888888888889,-0.078125,-0.4166666666666667,,,,,0,0,0,0,0,2,2,2,,,,,,,,,,,,,,,,,,,,,,,,,,,,,,,,,,,,,,,,,,18.21659169999839,,,,,,,,,,,,,,,,,,,,,,,,,,,,,,,,,,,,000000,0,2020_Sep_01_1538,TerKepEsz-Encoding_MR,2020.1.3,59.990449520171325,
3.0,2000.0,1.0,LLP,1.0,5.0,stimuli/fractals/41b.jpg,0.390625,0.4166666666666667,stimuli/fractals/41b.jpg,stimuli/fractals/41a.jpg,stimuli/fractals/41c.jpg,0.390625,0.4166666666666667,0.234375,0.4166666666666667,0.390625,0.1388888888888889,-0.078125,-0.4166666666666667,,,,,0,0,0,0,0,2,2,2,,,,,,,,,,,,,,,,,,,,,,,,,,,,,,,,,,,,,,,,,,18.448867099999916,,,,,,,,,,,,,,,,,,,,,,,,,,,,,,,,,,,,000000,0,2020_Sep_01_1538,TerKepEsz-Encoding_MR,2020.1.3,59.990449520171325,
3.0,2000.0,1.0,LLP,1.0,5.0,stimuli/fractals/41b.jpg,0.390625,0.4166666666666667,stimuli/fractals/41b.jpg,stimuli/fractals/41a.jpg,stimuli/fractals/41c.jpg,0.390625,0.4166666666666667,0.234375,0.4166666666666667,0.390625,0.1388888888888889,-0.078125,-0.4166666666666667,,,,,0,0,0,0,0,2,2,2,,,,,,,,,,,,,,,,,,,,,,,,,,,,,,,,,,,,,,,,,,18.681762099999105,,,,,,,,,,,,,,,,,,,,,,,,,,,,,,,,,,,,000000,0,2020_Sep_01_1538,TerKepEsz-Encoding_MR,2020.1.3,59.990449520171325,
3.0,2000.0,1.0,LLP,1.0,5.0,stimuli/fractals/41b.jpg,0.390625,0.4166666666666667,stimuli/fractals/41b.jpg,stimuli/fractals/41a.jpg,stimuli/fractals/41c.jpg,0.390625,0.4166666666666667,0.234375,0.4166666666666667,0.390625,0.1388888888888889,-0.078125,-0.4166666666666667,,,,,0,0,0,0,0,2,2,2,,,,,,,,,,,,,,,,,,,,,,,,,,,,,,,,,,,,,,,,,,19.048958299999867,,,,,,,,,,,,,,,,,,,,,,,,,,,,,,,,,,,,000000,0,2020_Sep_01_1538,TerKepEsz-Encoding_MR,2020.1.3,59.990449520171325,
3.0,2000.0,1.0,LLP,1.0,5.0,stimuli/fractals/41b.jpg,0.390625,0.4166666666666667,stimuli/fractals/41b.jpg,stimuli/fractals/41a.jpg,stimuli/fractals/41c.jpg,0.390625,0.4166666666666667,0.234375,0.4166666666666667,0.390625,0.1388888888888889,-0.078125,-0.4166666666666667,,,,,0,0,0,0,0,2,2,2,,,,,,,,,,,,,,,,,,,,,,,,,,,,,,,,,,,,,,,,,,19.331497799999852,,,,,,,,,,,55.677283299999544,None,55.677283299999544,None,None,55.677283299999544,None,19.074266899999202,19.098362499998984,,,,,,,,,,,,,,,,,000000,0,2020_Sep_01_1538,TerKepEsz-Encoding_MR,2020.1.3,59.990449520171325,
3.0,2000.0,1.0,LLP,1.0,5.0,stimuli/fractals/41b.jpg,0.390625,0.4166666666666667,stimuli/fractals/41b.jpg,stimuli/fractals/41a.jpg,stimuli/fractals/41c.jpg,0.390625,0.4166666666666667,0.234375,0.4166666666666667,0.390625,0.1388888888888889,-0.078125,-0.4166666666666667,,,,,0,0,0,0,0,2,2,2,,,,,,,,,,,,,,,,,,,,,,,,,,,,,,,,,,,,,,,,,,19.53159119999873,,,,,,,,,,,,,,,,,,,,,,,,,,,,,,,,,,,,000000,0,2020_Sep_01_1538,TerKepEsz-Encoding_MR,2020.1.3,59.990449520171325,
3.0,2000.0,1.0,LLP,1.0,5.0,stimuli/fractals/41b.jpg,0.390625,0.4166666666666667,stimuli/fractals/41b.jpg,stimuli/fractals/41a.jpg,stimuli/fractals/41c.jpg,0.390625,0.4166666666666667,0.234375,0.4166666666666667,0.390625,0.1388888888888889,-0.078125,-0.4166666666666667,,,,,0,0,0,0,0,2,2,2,,,,,,,,,,,,,,,,,,,,,,,,,,,,,,,,,,,,,,,,,,20.09873669999979,,,,,,,,,,,,,,,,,,,,,,,,,,,,,,,,,,,,000000,0,2020_Sep_01_1538,TerKepEsz-Encoding_MR,2020.1.3,59.990449520171325,
3.0,2000.0,1.0,LLP,1.0,5.0,stimuli/fractals/41b.jpg,0.390625,0.4166666666666667,stimuli/fractals/41b.jpg,stimuli/fractals/41a.jpg,stimuli/fractals/41c.jpg,0.390625,0.4166666666666667,0.234375,0.4166666666666667,0.390625,0.1388888888888889,-0.078125,-0.4166666666666667,,,,,0,0,0,0,0,2,2,2,,,,,,,,,,,,,,,,,,,,,,,,,,,,,,,,,,,,,,,,,,20.3149758999989,,,,,,,,,,,,,,,,,,,,,,,,,,,,,,,,,,,,000000,0,2020_Sep_01_1538,TerKepEsz-Encoding_MR,2020.1.3,59.990449520171325,
3.0,2000.0,1.0,LLP,1.0,5.0,stimuli/fractals/41b.jpg,0.390625,0.4166666666666667,stimuli/fractals/41b.jpg,stimuli/fractals/41a.jpg,stimuli/fractals/41c.jpg,0.390625,0.4166666666666667,0.234375,0.4166666666666667,0.390625,0.1388888888888889,-0.078125,-0.4166666666666667,,,,,0,0,0,0,0,2,2,2,,,,,,,,,,,,,,,,,,,,,,,,,,,,,,,,,,,,,,,,,,20.832246199999645,,,,,,,,,,,,,,,,,,,,,,,,,,,,,,,,,,,,000000,0,2020_Sep_01_1538,TerKepEsz-Encoding_MR,2020.1.3,59.990449520171325,
3.0,2000.0,1.0,LLP,1.0,5.0,stimuli/fractals/41b.jpg,0.390625,0.4166666666666667,stimuli/fractals/41b.jpg,stimuli/fractals/41a.jpg,stimuli/fractals/41c.jpg,0.390625,0.4166666666666667,0.234375,0.4166666666666667,0.390625,0.1388888888888889,-0.078125,-0.4166666666666667,,,,,0,0,0,0,0,2,2,2,,,,,,,,,,,,,,,,,,,,,,,,,,,,,,,,,,,,,,,,,,21.09856409999884,,,,,,,,,,,,,,,,,,,,,,,,,,,,,,,,,,,,000000,0,2020_Sep_01_1538,TerKepEsz-Encoding_MR,2020.1.3,59.990449520171325,
3.0,2000.0,1.0,LLP,1.0,5.0,stimuli/fractals/41b.jpg,0.390625,0.4166666666666667,stimuli/fractals/41b.jpg,stimuli/fractals/41a.jpg,stimuli/fractals/41c.jpg,0.390625,0.4166666666666667,0.234375,0.4166666666666667,0.390625,0.1388888888888889,-0.078125,-0.4166666666666667,,,,,0,0,0,0,0,2,2,2,,,,,,,,,,,,,,,,,,,,,,,,,,,,,,,,,,,,,,,,,,21.315697,,,,,,,,,,,,,,,,,,,,,,,,,,,,,,,,,,,,000000,0,2020_Sep_01_1538,TerKepEsz-Encoding_MR,2020.1.3,59.990449520171325,
3.0,2000.0,1.0,LLP,1.0,5.0,stimuli/fractals/41b.jpg,0.390625,0.4166666666666667,stimuli/fractals/41b.jpg,stimuli/fractals/41a.jpg,stimuli/fractals/41c.jpg,0.390625,0.4166666666666667,0.234375,0.4166666666666667,0.390625,0.1388888888888889,-0.078125,-0.4166666666666667,,,,,0,0,0,0,0,2,2,2,,,,,,,,,,,,,,,,,,,,,,,,,,,,,,,,,,,,,,,,,,21.68223559999933,,,,,,,,,,,,,,,,,,,,,,,,,,,,,,,,,,,,000000,0,2020_Sep_01_1538,TerKepEsz-Encoding_MR,2020.1.3,59.990449520171325,
3.0,2000.0,1.0,LLP,1.0,5.0,stimuli/fractals/41b.jpg,0.390625,0.4166666666666667,stimuli/fractals/41b.jpg,stimuli/fractals/41a.jpg,stimuli/fractals/41c.jpg,0.390625,0.4166666666666667,0.234375,0.4166666666666667,0.390625,0.1388888888888889,-0.078125,-0.4166666666666667,,,,,0,0,0,0,0,2,2,2,,,,,,,,,,,,,,,,,,,,,,,,,,,,,,,,,,,,,,,,,,21.916261399999712,,,,,,,,,,,,,,,,,,,,,,,,,,,,,,,,,,,,000000,0,2020_Sep_01_1538,TerKepEsz-Encoding_MR,2020.1.3,59.990449520171325,
3.0,2000.0,1.0,LLP,1.0,5.0,stimuli/fractals/41b.jpg,0.390625,0.4166666666666667,stimuli/fractals/41b.jpg,stimuli/fractals/41a.jpg,stimuli/fractals/41c.jpg,0.390625,0.4166666666666667,0.234375,0.4166666666666667,0.390625,0.1388888888888889,-0.078125,-0.4166666666666667,,,,,0,0,0,0,0,2,2,2,,,,,,,,,,,,,,,,,,,,,,,,,,,,,,,,,,,,,,,,,,,,,,,,,,,,,,,,,,,,,,57.69400440000027,None,57.69400440000027,None,b,57.69400440000027,None,0.8007747000010568,,,,,,,,,000000,0,2020_Sep_01_1538,TerKepEsz-Encoding_MR,2020.1.3,59.990449520171325,
,,,,,,,,,,,,,,,,,,,,,,,,0,0,0,0,,,,,,,,,,,,,,,,,,,,,,,,,,,,,,,,,,,,,,,,,,,,,,22.163957499999015,,,,,,,,,,,,,,,,,,,,,,,,,,,,,,,,,,,,000000,0,2020_Sep_01_1538,TerKepEsz-Encoding_MR,2020.1.3,59.990449520171325,
,,,,,,,,,,,,,,,,,,,,,,,,0,0,0,0,,,,,,,,,,,,,,,,,,,,,,,,,,,,,,,,,,,,,,,,,,,,,,22.679773699999714,,,,,,,,,,,,,,,,,,,,,,,,,,,,,,,,,,,,000000,0,2020_Sep_01_1538,TerKepEsz-Encoding_MR,2020.1.3,59.990449520171325,
,,,,,,,,,,,,,,,,,,,,,,,,1,0,1,0,,,,,,,,,,,,,,,,,,,,,,,,,,,,,,,,,,,,,,,,,,,,,,0.001911199999085511,66.29376620000039,None,['s'],[1.0171644999991258],66.29376620000039,None,,,,,,,,,,,,,,,,,,,,,,60.69387649999953,None,d,0.5770018000002892,65.69371630000023,None,65.69371630000023,None,000000,0,2020_Sep_01_1538,TerKepEsz-Encoding_MR,2020.1.3,59.990449520171325,
,,,,,,,,,,,,,,,,,,,,,,,,1,0,1,0,,,,,,,,,,,,,,,,,,,,,,,,,,,,,,,,,,,,,,,,,,,,,,0.36576269999932265,,,,,,,,,,,,,,,,,,,,,,,,,,,,,,,,,,,,000000,0,2020_Sep_01_1538,TerKepEsz-Encoding_MR,2020.1.3,59.990449520171325,
,,,,,,,,,,,,,,,,,,,,,,,,1,0,1,0,,,,,,,,,,,,,,,,,,,,,,,,,,,,,,,,,,,,,,,,,,,,,,0.6148581999987073,,,,,,,,,,,,,,,,,,,,,,,,,,,,,,,,,,,,000000,0,2020_Sep_01_1538,TerKepEsz-Encoding_MR,2020.1.3,59.990449520171325,
,,,,,,,,,,,,,,,,,,,,,,,,1,0,1,0,,,,,,,,,,,,,,,,,,,,,,,,,,,,,,,,,,,,,,,,,,,,,,1.0148936999994476,,,,,,,,,,,,,,,,,,,,,,,,,,,,,,,,,,,,000000,0,2020_Sep_01_1538,TerKepEsz-Encoding_MR,2020.1.3,59.990449520171325,
,,,,,,,,,,,,,,,,,,,,,,,,1,0,1,0,,,,,,,,,,,,,,,,,,,,,,,,,,,,,,,,,,,,,,,,,,,,,,1.2308967999997549,,,,,,,,,,,,,,,,,,,,,,,,,,,,,,,,,,,,000000,0,2020_Sep_01_1538,TerKepEsz-Encoding_MR,2020.1.3,59.990449520171325,
,,,,,,,,,,,,,,,,,,,,,,,,1,0,1,0,,,,,,,,,,,,,,,,,,,,,,,,,,,,,,,,,,,,,,,,,,,,,,1.4478984999987006,,,,,,,,,,,,,,,,,,,,,,,,,,,,,,,,,,,,000000,0,2020_Sep_01_1538,TerKepEsz-Encoding_MR,2020.1.3,59.990449520171325,
,,,,,,,,,,,,,,,,,,,,,,,,1,0,1,0,,,,,,,,,,,,,,,,,,,,,,,,,,,,,,,,,,,,,,,,,,,,,,1.8476300000002084,,,,,,,,,,,,,,,,,,,,,,,,,,,,,,,,,,,,000000,0,2020_Sep_01_1538,TerKepEsz-Encoding_MR,2020.1.3,59.990449520171325,
,,,,,,,,,,,,,,,,,,,,,,,,1,0,1,0,,,,,,,,,,,,,,,,,,,,,,,,,,,,,,,,,,,,,,,,,,,,,,2.0979772999999113,,,,,,,,,,,,,,,,,,,,,,,,,,,,,,,,,,,,000000,0,2020_Sep_01_1538,TerKepEsz-Encoding_MR,2020.1.3,59.990449520171325,
,,,,,,,,,,,,,,,,,,,,,,,,1,0,1,0,,,,,,,,,,,,,,,,,,,,,,,,,,,,,,,,,,,,,,,,,,,,,,2.3479215999996086,,,,,,,,,,,,,,,,,,,,,,,,,,,,,,,,,,,,000000,0,2020_Sep_01_1538,TerKepEsz-Encoding_MR,2020.1.3,59.990449520171325,
,,,,,,,,,,,,,,,,,,,,,,,,1,0,1,0,,,,,,,,,,,,,,,,,,,,,,,,,,,,,,,,,,,,,,,,,,,,,,2.7312157999986084,,,,,,,,,,,,,,,,,,,,,,,,,,,,,,,,,,,,000000,0,2020_Sep_01_1538,TerKepEsz-Encoding_MR,2020.1.3,59.990449520171325,
,,,,,,,,,,,,,,,,,,,,,,,,1,0,1,0,,,,,,,,,,,,,,,,,,,,,,,,,,,,,,,,,,,,,,,,,,,,,,2.9809630999989167,,,,,,,,,,,,,,,,,,,,,,,,,,,,,,,,,,,,000000,0,2020_Sep_01_1538,TerKepEsz-Encoding_MR,2020.1.3,59.990449520171325,
4.0,1000.0,1.0,ERP,1.0,2.0,stimuli/fractals/115a.jpg,0.078125,0.4166666666666667,stimuli/fractals/115a.jpg,stimuli/fractals/115b.jpg,stimuli/fractals/115c.jpg,0.078125,0.4166666666666667,0.234375,0.4166666666666667,0.078125,0.1388888888888889,-0.390625,-0.1388888888888889,,,,,1,0,1,0,0,0,0,0,,,,,,,,,,,,,,,,,,,,,,,,,,,,,,,,,,,,,,,,,,3.1672240999996575,,,,,,,67.32703910000055,None,3.026519199998802,3.0495786999999837,,,,,,,,,,,,,,,,,,,,,,,,,,000000,0,2020_Sep_01_1538,TerKepEsz-Encoding_MR,2020.1.3,59.990449520171325,
4.0,1000.0,1.0,ERP,1.0,2.0,stimuli/fractals/115a.jpg,0.078125,0.4166666666666667,stimuli/fractals/115a.jpg,stimuli/fractals/115b.jpg,stimuli/fractals/115c.jpg,0.078125,0.4166666666666667,0.234375,0.4166666666666667,0.078125,0.1388888888888889,-0.390625,-0.1388888888888889,,,,,1,0,1,0,0,0,0,0,,,,,,,,,,,,,,,,,,,,,,,,,,,,,,,,,,,,,,,,,,3.56609539999954,,,,,,,,,,,,,,,,,,,,,,,,,,,,,,,,,,,,000000,0,2020_Sep_01_1538,TerKepEsz-Encoding_MR,2020.1.3,59.990449520171325,
4.0,1000.0,1.0,ERP,1.0,2.0,stimuli/fractals/115a.jpg,0.078125,0.4166666666666667,stimuli/fractals/115a.jpg,stimuli/fractals/115b.jpg,stimuli/fractals/115c.jpg,0.078125,0.4166666666666667,0.234375,0.4166666666666667,0.078125,0.1388888888888889,-0.390625,-0.1388888888888889,,,,,1,0,1,0,0,0,0,0,,,,,,,,,,,,,,,,,,,,,,,,,,,,,,,,,,,,,,,,,,3.80001749999974,,,,,,,,,,,,,,,,,,,,,,,,,,,,,,,,,,,,000000,0,2020_Sep_01_1538,TerKepEsz-Encoding_MR,2020.1.3,59.990449520171325,
4.0,1000.0,1.0,ERP,1.0,2.0,stimuli/fractals/115a.jpg,0.078125,0.4166666666666667,stimuli/fractals/115a.jpg,stimuli/fractals/115b.jpg,stimuli/fractals/115c.jpg,0.078125,0.4166666666666667,0.234375,0.4166666666666667,0.078125,0.1388888888888889,-0.390625,-0.1388888888888889,,,,,1,0,1,0,0,0,0,0,,,,,,,,,,,,,,,,,,,,,,,,,,,,,,,,,,,,,,,,,,4.016912899998715,,,,,,,,,,,,,,,,,,,,,,,,,,,,,,,,,,,,000000,0,2020_Sep_01_1538,TerKepEsz-Encoding_MR,2020.1.3,59.990449520171325,
4.0,1000.0,1.0,ERP,1.0,2.0,stimuli/fractals/115a.jpg,0.078125,0.4166666666666667,stimuli/fractals/115a.jpg,stimuli/fractals/115b.jpg,stimuli/fractals/115c.jpg,0.078125,0.4166666666666667,0.234375,0.4166666666666667,0.078125,0.1388888888888889,-0.390625,-0.1388888888888889,,,,,1,0,1,0,0,0,0,0,,,,,,,,,,,,,,,,,,,,,,,,,,,,,,,,,,,,,,,,,,4.3998629999987315,,,,,,,,,,,70.36037260000012,None,70.36037260000012,None,None,70.36037260000012,None,4.042581599998812,4.0655663999987155,,,,,,,,,,,,,,,,,000000,0,2020_Sep_01_1538,TerKepEsz-Encoding_MR,2020.1.3,59.990449520171325,
4.0,1000.0,1.0,ERP,1.0,2.0,stimuli/fractals/115a.jpg,0.078125,0.4166666666666667,stimuli/fractals/115a.jpg,stimuli/fractals/115b.jpg,stimuli/fractals/115c.jpg,0.078125,0.4166666666666667,0.234375,0.4166666666666667,0.078125,0.1388888888888889,-0.390625,-0.1388888888888889,,,,,1,0,1,0,0,0,0,0,,,,,,,,,,,,,,,,,,,,,,,,,,,,,,,,,,,,,,,,,,4.650529200000165,,,,,,,,,,,,,,,,,,,,,,,,,,,,,,,,,,,,000000,0,2020_Sep_01_1538,TerKepEsz-Encoding_MR,2020.1.3,59.990449520171325,
4.0,1000.0,1.0,ERP,1.0,2.0,stimuli/fractals/115a.jpg,0.078125,0.4166666666666667,stimuli/fractals/115a.jpg,stimuli/fractals/115b.jpg,stimuli/fractals/115c.jpg,0.078125,0.4166666666666667,0.234375,0.4166666666666667,0.078125,0.1388888888888889,-0.390625,-0.1388888888888889,,,,,1,0,1,0,0,0,0,0,,,,,,,,,,,,,,,,,,,,,,,,,,,,,,,,,,,,,,,,,,4.86586559999887,,,,,,,,,,,,,,,,,,,,,,,,,,,,,,,,,,,,000000,0,2020_Sep_01_1538,TerKepEsz-Encoding_MR,2020.1.3,59.990449520171325,
4.0,1000.0,1.0,ERP,1.0,2.0,stimuli/fractals/115a.jpg,0.078125,0.4166666666666667,stimuli/fractals/115a.jpg,stimuli/fractals/115b.jpg,stimuli/fractals/115c.jpg,0.078125,0.4166666666666667,0.234375,0.4166666666666667,0.078125,0.1388888888888889,-0.390625,-0.1388888888888889,,,,,1,0,1,0,0,0,0,0,,,,,,,,,,,,,,,,,,,,,,,,,,,,,,,,,,,,,,,,,,5.216584899999361,,,,,,,,,,,,,,,,,,,,,,,,,,,,,,,,,,,,000000,0,2020_Sep_01_1538,TerKepEsz-Encoding_MR,2020.1.3,59.990449520171325,
4.0,1000.0,1.0,ERP,1.0,2.0,stimuli/fractals/115a.jpg,0.078125,0.4166666666666667,stimuli/fractals/115a.jpg,stimuli/fractals/115b.jpg,stimuli/fractals/115c.jpg,0.078125,0.4166666666666667,0.234375,0.4166666666666667,0.078125,0.1388888888888889,-0.390625,-0.1388888888888889,,,,,1,0,1,0,0,0,0,0,,,,,,,,,,,,,,,,,,,,,,,,,,,,,,,,,,,,,,,,,,5.450599099998726,,,,,,,,,,,,,,,,,,,,,,,,,,,,,,,,,,,,000000,0,2020_Sep_01_1538,TerKepEsz-Encoding_MR,2020.1.3,59.990449520171325,
4.0,1000.0,1.0,ERP,1.0,2.0,stimuli/fractals/115a.jpg,0.078125,0.4166666666666667,stimuli/fractals/115a.jpg,stimuli/fractals/115b.jpg,stimuli/fractals/115c.jpg,0.078125,0.4166666666666667,0.234375,0.4166666666666667,0.078125,0.1388888888888889,-0.390625,-0.1388888888888889,,,,,1,0,1,0,0,0,0,0,,,,,,,,,,,,,,,,,,,,,,,,,,,,,,,,,,,,,,,,,,5.666969899999458,,,,,,,,,,,,,,,,,,,,,,,,,,,,,,,,,,,,000000,0,2020_Sep_01_1538,TerKepEsz-Encoding_MR,2020.1.3,59.990449520171325,
4.0,1000.0,1.0,ERP,1.0,2.0,stimuli/fractals/115a.jpg,0.078125,0.4166666666666667,stimuli/fractals/115a.jpg,stimuli/fractals/115b.jpg,stimuli/fractals/115c.jpg,0.078125,0.4166666666666667,0.234375,0.4166666666666667,0.078125,0.1388888888888889,-0.390625,-0.1388888888888889,,,,,1,0,1,0,0,0,0,0,,,,,,,,,,,,,,,,,,,,,,,,,,,,,,,,,,,,,,,,,,6.083005799999228,,,,,,,,,,,,,,,,,,,,,,,,,,,,,,,,,,,,000000,0,2020_Sep_01_1538,TerKepEsz-Encoding_MR,2020.1.3,59.990449520171325,
4.0,1000.0,1.0,ERP,1.0,2.0,stimuli/fractals/115a.jpg,0.078125,0.4166666666666667,stimuli/fractals/115a.jpg,stimuli/fractals/115b.jpg,stimuli/fractals/115c.jpg,0.078125,0.4166666666666667,0.234375,0.4166666666666667,0.078125,0.1388888888888889,-0.390625,-0.1388888888888889,,,,,1,0,1,0,0,0,0,0,,,,,,,,,,,,,,,,,,,,,,,,,,,,,,,,,,,,,,,,,,6.299810099999377,,,,,,,,,,,,,,,,,,,,,,,,,,,,,,,,,,,,000000,0,2020_Sep_01_1538,TerKepEsz-Encoding_MR,2020.1.3,59.990449520171325,
4.0,1000.0,1.0,ERP,1.0,2.0,stimuli/fractals/115a.jpg,0.078125,0.4166666666666667,stimuli/fractals/115a.jpg,stimuli/fractals/115b.jpg,stimuli/fractals/115c.jpg,0.078125,0.4166666666666667,0.234375,0.4166666666666667,0.078125,0.1388888888888889,-0.390625,-0.1388888888888889,,,,,1,0,1,0,0,0,0,0,,,,,,,,,,,,,,,,,,,,,,,,,,,,,,,,,,,,,,,,,,6.49984779999977,,,,,,,,,,,,,,,,,,,,,,,,,,,,,,,,,,,,000000,0,2020_Sep_01_1538,TerKepEsz-Encoding_MR,2020.1.3,59.990449520171325,
4.0,1000.0,1.0,ERP,1.0,2.0,stimuli/fractals/115a.jpg,0.078125,0.4166666666666667,stimuli/fractals/115a.jpg,stimuli/fractals/115b.jpg,stimuli/fractals/115c.jpg,0.078125,0.4166666666666667,0.234375,0.4166666666666667,0.078125,0.1388888888888889,-0.390625,-0.1388888888888889,,,,,1,0,1,0,0,0,0,0,,,,,,,,,,,,,,,,,,,,,,,,,,,,,,,,,,,,,,,,,,6.899769199999355,,,,,,,,,,,,,,,,,,,,,,,,,,,,,,,,,,,,000000,0,2020_Sep_01_1538,TerKepEsz-Encoding_MR,2020.1.3,59.990449520171325,
4.0,1000.0,1.0,ERP,1.0,2.0,stimuli/fractals/115a.jpg,0.078125,0.4166666666666667,stimuli/fractals/115a.jpg,stimuli/fractals/115b.jpg,stimuli/fractals/115c.jpg,0.078125,0.4166666666666667,0.234375,0.4166666666666667,0.078125,0.1388888888888889,-0.390625,-0.1388888888888889,,,,,1,0,1,0,0,0,0,0,,,,,,,,,,,,,,,,,,,,,,,,,,,,,,,,,,,,,,,,,,,,,,,,,,,,,,,,,,,,,,71.37692529999913,None,71.37692529999913,None,None,71.37692529999913,None,,,,,,,,,,000000,0,2020_Sep_01_1538,TerKepEsz-Encoding_MR,2020.1.3,59.990449520171325,
5.0,5000.0,1.0,OLP,2.0,0.0,stimuli/fractals/131b.jpg,-0.234375,0.1388888888888889,stimuli/fractals/131c.jpg,stimuli/fractals/131b.jpg,stimuli/fractals/131a.jpg,-0.234375,0.1388888888888889,-0.234375,-0.1388888888888889,-0.078125,0.1388888888888889,0.234375,-0.4166666666666667,,,,,1,0,1,0,0,1,1,1,,,,,,,,,,,,,,,,,,,,,,,,,,,,,,,,,,,,,,,,,,7.1158863000000565,,,,,,,,,,7.065494499998749,,,,,,,,,,,,,,,,,,,,,,,,,,000000,0,2020_Sep_01_1538,TerKepEsz-Encoding_MR,2020.1.3,59.990449520171325,
5.0,5000.0,1.0,OLP,2.0,0.0,stimuli/fractals/131b.jpg,-0.234375,0.1388888888888889,stimuli/fractals/131c.jpg,stimuli/fractals/131b.jpg,stimuli/fractals/131a.jpg,-0.234375,0.1388888888888889,-0.234375,-0.1388888888888889,-0.078125,0.1388888888888889,0.234375,-0.4166666666666667,,,,,1,0,1,0,0,1,1,1,,,,,,,,,,,,,,,,,,,,,,,,,,,,,,,,,,,,,,,,,,7.31719669999984,,,,,,,,,,,,,,,,,,,,,,,,,,,,,,,,,,,,000000,0,2020_Sep_01_1538,TerKepEsz-Encoding_MR,2020.1.3,59.990449520171325,
5.0,5000.0,1.0,OLP,2.0,0.0,stimuli/fractals/131b.jpg,-0.234375,0.1388888888888889,stimuli/fractals/131c.jpg,stimuli/fractals/131b.jpg,stimuli/fractals/131a.jpg,-0.234375,0.1388888888888889,-0.234375,-0.1388888888888889,-0.078125,0.1388888888888889,0.234375,-0.4166666666666667,,,,,1,0,1,0,0,1,1,1,,,,,,,,,,,,,,,,,,,,,,,,,,,,,,,,,,,,,,,,,,7.717218899999352,,,,,,,,,,,,,,,,,,,,,,,,,,,,,,,,,,,,000000,0,2020_Sep_01_1538,TerKepEsz-Encoding_MR,2020.1.3,59.990449520171325,
5.0,5000.0,1.0,OLP,2.0,0.0,stimuli/fractals/131b.jpg,-0.234375,0.1388888888888889,stimuli/fractals/131c.jpg,stimuli/fractals/131b.jpg,stimuli/fractals/131a.jpg,-0.234375,0.1388888888888889,-0.234375,-0.1388888888888889,-0.078125,0.1388888888888889,0.234375,-0.4166666666666667,,,,,1,0,1,0,0,1,1,1,,,,,,,,,,,,,,,,,,,,,,,,,,,,,,,,,,,,,,,,,,7.933853700000327,,,,,,,,,,,,,,,,,,,,,,,,,,,,,,,,,,,,000000,0,2020_Sep_01_1538,TerKepEsz-Encoding_MR,2020.1.3,59.990449520171325,
5.0,5000.0,1.0,OLP,2.0,0.0,stimuli/fractals/131b.jpg,-0.234375,0.1388888888888889,stimuli/fractals/131c.jpg,stimuli/fractals/131b.jpg,stimuli/fractals/131a.jpg,-0.234375,0.1388888888888889,-0.234375,-0.1388888888888889,-0.078125,0.1388888888888889,0.234375,-0.4166666666666667,,,,,1,0,1,0,0,1,1,1,,,,,,,,,,,,,,,,,,,,,,,,,,,,,,,,,,,,,,,,,,8.13295189999917,,,,,,,,,,,,,,,,,,,,,,,,,,,,,,,,,,,,000000,0,2020_Sep_01_1538,TerKepEsz-Encoding_MR,2020.1.3,59.990449520171325,
5.0,5000.0,1.0,OLP,2.0,0.0,stimuli/fractals/131b.jpg,-0.234375,0.1388888888888889,stimuli/fractals/131c.jpg,stimuli/fractals/131b.jpg,stimuli/fractals/131a.jpg,-0.234375,0.1388888888888889,-0.234375,-0.1388888888888889,-0.078125,0.1388888888888889,0.234375,-0.4166666666666667,,,,,1,0,1,0,0,1,1,1,,,,,,,,,,,,,,,,,,,,,,,,,,,,,,,,,,,,,,,,,,8.56715339999937,,,,,,,,,,,,,,,,,,,,,,,,,,,,,,,,,,,,000000,0,2020_Sep_01_1538,TerKepEsz-Encoding_MR,2020.1.3,59.990449520171325,
5.0,5000.0,1.0,OLP,2.0,0.0,stimuli/fractals/131b.jpg,-0.234375,0.1388888888888889,stimuli/fractals/131c.jpg,stimuli/fractals/131b.jpg,stimuli/fractals/131a.jpg,-0.234375,0.1388888888888889,-0.234375,-0.1388888888888889,-0.078125,0.1388888888888889,0.234375,-0.4166666666666667,,,,,1,0,1,0,0,1,1,1,,,,,,,,,,,,,,,,,,,,,,,,,,,,,,,,,,,,,,,,,,8.799859099999594,,,,,,,,,,,,,,,,,,,,,,,,,,,,,,,,,,,,000000,0,2020_Sep_01_1538,TerKepEsz-Encoding_MR,2020.1.3,59.990449520171325,
5.0,5000.0,1.0,OLP,2.0,0.0,stimuli/fractals/131b.jpg,-0.234375,0.1388888888888889,stimuli/fractals/131c.jpg,stimuli/fractals/131b.jpg,stimuli/fractals/131a.jpg,-0.234375,0.1388888888888889,-0.234375,-0.1388888888888889,-0.078125,0.1388888888888889,0.234375,-0.4166666666666667,,,,,1,0,1,0,0,1,1,1,,,,,,,,,,,,,,,,,,,,,,,,,,,,,,,,,,,,,,,,,,9.017093599999498,,,,,,,,,,,,,,,,,,,,,,,,,,,,,,,,,,,,000000,0,2020_Sep_01_1538,TerKepEsz-Encoding_MR,2020.1.3,59.990449520171325,
5.0,5000.0,1.0,OLP,2.0,0.0,stimuli/fractals/131b.jpg,-0.234375,0.1388888888888889,stimuli/fractals/131c.jpg,stimuli/fractals/131b.jpg,stimuli/fractals/131a.jpg,-0.234375,0.1388888888888889,-0.234375,-0.1388888888888889,-0.078125,0.1388888888888889,0.234375,-0.4166666666666667,,,,,1,0,1,0,0,1,1,1,,,,,,,,,,,,,,,,,,,,,,,,,,,,,,,,,,,,,,,,,,9.433014399999593,,,,,,,,,,,,,,,,,,,,,,,,,,,,,,,,,,,,000000,0,2020_Sep_01_1538,TerKepEsz-Encoding_MR,2020.1.3,59.990449520171325,
5.0,5000.0,1.0,OLP,2.0,0.0,stimuli/fractals/131b.jpg,-0.234375,0.1388888888888889,stimuli/fractals/131c.jpg,stimuli/fractals/131b.jpg,stimuli/fractals/131a.jpg,-0.234375,0.1388888888888889,-0.234375,-0.1388888888888889,-0.078125,0.1388888888888889,0.234375,-0.4166666666666667,,,,,1,0,1,0,0,1,1,1,,,,,,,,,,,,,,,,,,,,,,,,,,,,,,,,,,,,,,,,,,9.699907599999278,,,,,,,,,,,,,,,,,,,,,,,,,,,,,,,,,,,,000000,0,2020_Sep_01_1538,TerKepEsz-Encoding_MR,2020.1.3,59.990449520171325,
5.0,5000.0,1.0,OLP,2.0,0.0,stimuli/fractals/131b.jpg,-0.234375,0.1388888888888889,stimuli/fractals/131c.jpg,stimuli/fractals/131b.jpg,stimuli/fractals/131a.jpg,-0.234375,0.1388888888888889,-0.234375,-0.1388888888888889,-0.078125,0.1388888888888889,0.234375,-0.4166666666666667,,,,,1,0,1,0,0,1,1,1,,,,,,,,,,,,,,,,,,,,,,,,,,,,,,,,,,,,,,,,,,9.91611499999999,,,,,,,,,,,,,,,,,,,,,,,,,,,,,,,,,,,,000000,0,2020_Sep_01_1538,TerKepEsz-Encoding_MR,2020.1.3,59.990449520171325,
5.0,5000.0,1.0,OLP,2.0,0.0,stimuli/fractals/131b.jpg,-0.234375,0.1388888888888889,stimuli/fractals/131c.jpg,stimuli/fractals/131b.jpg,stimuli/fractals/131a.jpg,-0.234375,0.1388888888888889,-0.234375,-0.1388888888888889,-0.078125,0.1388888888888889,0.234375,-0.4166666666666667,,,,,1,0,1,0,0,1,1,1,,,,,,,,,,,,,,,,,,,,,,,,,,,,,,,,,,,,,,,,,,10.299954199999775,,,,,,,,,,,,,,,,,,,,,,,,,,,,,,,,,,,,000000,0,2020_Sep_01_1538,TerKepEsz-Encoding_MR,2020.1.3,59.990449520171325,
5.0,5000.0,1.0,OLP,2.0,0.0,stimuli/fractals/131b.jpg,-0.234375,0.1388888888888889,stimuli/fractals/131c.jpg,stimuli/fractals/131b.jpg,stimuli/fractals/131a.jpg,-0.234375,0.1388888888888889,-0.234375,-0.1388888888888889,-0.078125,0.1388888888888889,0.234375,-0.4166666666666667,,,,,1,0,1,0,0,1,1,1,,,,,,,,,,,,,,,,,,,,,,,,,,,,,,,,,,,,,,,,,,10.532964599999104,,,,,,,,,,,,,,,,,,,,,,,,,,,,,,,,,,,,000000,0,2020_Sep_01_1538,TerKepEsz-Encoding_MR,2020.1.3,59.990449520171325,
5.0,5000.0,1.0,OLP,2.0,0.0,stimuli/fractals/131b.jpg,-0.234375,0.1388888888888889,stimuli/fractals/131c.jpg,stimuli/fractals/131b.jpg,stimuli/fractals/131a.jpg,-0.234375,0.1388888888888889,-0.234375,-0.1388888888888889,-0.078125,0.1388888888888889,0.234375,-0.4166666666666667,,,,,1,0,1,0,0,1,1,1,,,,,,,,,,,,,,,,,,,,,,,,,,,,,,,,,,,,,,,,,,10.749956399999064,,,,,,,,,,,,,,,,,,,,,,,,,,,,,,,,,,,,000000,0,2020_Sep_01_1538,TerKepEsz-Encoding_MR,2020.1.3,59.990449520171325,
5.0,5000.0,1.0,OLP,2.0,0.0,stimuli/fractals/131b.jpg,-0.234375,0.1388888888888889,stimuli/fractals/131c.jpg,stimuli/fractals/131b.jpg,stimuli/fractals/131a.jpg,-0.234375,0.1388888888888889,-0.234375,-0.1388888888888889,-0.078125,0.1388888888888889,0.234375,-0.4166666666666667,,,,,1,0,1,0,0,1,1,1,,,,,,,,,,,,,,,,,,,,,,,,,,,,,,,,,,,,,,,,,,11.133065399999396,,,,,,,,,,,,,,,,,,,,,,,,,,,,,,,,,,,,000000,0,2020_Sep_01_1538,TerKepEsz-Encoding_MR,2020.1.3,59.990449520171325,
5.0,5000.0,1.0,OLP,2.0,0.0,stimuli/fractals/131b.jpg,-0.234375,0.1388888888888889,stimuli/fractals/131c.jpg,stimuli/fractals/131b.jpg,stimuli/fractals/131a.jpg,-0.234375,0.1388888888888889,-0.234375,-0.1388888888888889,-0.078125,0.1388888888888889,0.234375,-0.4166666666666667,,,,,1,0,1,0,0,1,1,1,,,,,,,,,,,,,,,,,,,,,,,,,,,,,,,,,,,,,,,,,,11.383033099999011,,,,,,,,,,,,,,,,,,,,,,,,,,,,,,,,,,,,000000,0,2020_Sep_01_1538,TerKepEsz-Encoding_MR,2020.1.3,59.990449520171325,
5.0,5000.0,1.0,OLP,2.0,0.0,stimuli/fractals/131b.jpg,-0.234375,0.1388888888888889,stimuli/fractals/131c.jpg,stimuli/fractals/131b.jpg,stimuli/fractals/131a.jpg,-0.234375,0.1388888888888889,-0.234375,-0.1388888888888889,-0.078125,0.1388888888888889,0.234375,-0.4166666666666667,,,,,1,0,1,0,0,1,1,1,,,,,,,,,,,,,,,,,,,,,,,,,,,,,,,,,,,,,,,,,,11.582926199998838,,,,,,,,,,,,,,,,,,,,,,,,,,,,,,,,,,,,000000,0,2020_Sep_01_1538,TerKepEsz-Encoding_MR,2020.1.3,59.990449520171325,
5.0,5000.0,1.0,OLP,2.0,0.0,stimuli/fractals/131b.jpg,-0.234375,0.1388888888888889,stimuli/fractals/131c.jpg,stimuli/fractals/131b.jpg,stimuli/fractals/131a.jpg,-0.234375,0.1388888888888889,-0.234375,-0.1388888888888889,-0.078125,0.1388888888888889,0.234375,-0.4166666666666667,,,,,1,0,1,0,0,1,1,1,,,,,,,,,,,,,,,,,,,,,,,,,,,,,,,,,,,,,,,,,,12.015947300000335,,,,,,,,,,,,,,,,,,,,,,,,,,,,,,,,,,,,000000,0,2020_Sep_01_1538,TerKepEsz-Encoding_MR,2020.1.3,59.990449520171325,
5.0,5000.0,1.0,OLP,2.0,0.0,stimuli/fractals/131b.jpg,-0.234375,0.1388888888888889,stimuli/fractals/131c.jpg,stimuli/fractals/131b.jpg,stimuli/fractals/131a.jpg,-0.234375,0.1388888888888889,-0.234375,-0.1388888888888889,-0.078125,0.1388888888888889,0.234375,-0.4166666666666667,,,,,1,0,1,0,0,1,1,1,,,,,,,,,,,,,,,,,,,,,,,,,,,,,,,,,,,,,,,,,,12.39957829999912,,,,,,,,,,,74.37687430000005,None,74.37687430000005,None,None,74.37687430000005,None,12.057542799999283,12.08151480000015,,,,,,,,,,,,,,,,,000000,0,2020_Sep_01_1538,TerKepEsz-Encoding_MR,2020.1.3,59.990449520171325,
5.0,5000.0,1.0,OLP,2.0,0.0,stimuli/fractals/131b.jpg,-0.234375,0.1388888888888889,stimuli/fractals/131c.jpg,stimuli/fractals/131b.jpg,stimuli/fractals/131a.jpg,-0.234375,0.1388888888888889,-0.234375,-0.1388888888888889,-0.078125,0.1388888888888889,0.234375,-0.4166666666666667,,,,,1,0,1,0,0,1,1,1,,,,,,,,,,,,,,,,,,,,,,,,,,,,,,,,,,,,,,,,,,12.615741300000082,,,,,,,,,,,,,,,,,,,,,,,,,,,,,,,,,,,,000000,0,2020_Sep_01_1538,TerKepEsz-Encoding_MR,2020.1.3,59.990449520171325,
